{
  "resourceType": "Bundle",
  "type": "transaction",
  "entry": [
    {
      "fullUrl": "DiagnosticReport/43a930ca-d757-11ec-9d64-0242ac120002",
      "resource": {
        "resourceType": "DiagnosticReport",
        "id": "43a930ca-d757-11ec-9d64-0242ac120002",
        "status": "final",
        "code": {
          "coding": [
            {
              "system": "http://loinc.org",
              "code": "81247-7",
              "display": "Early onset or syndromic epilepsy"
            }
          ]
        },
        "subject": {
          "type": "Patient",
          "reference": "Patient/43a92b3e-d757-11ec-9d64-0242ac120002"
        },
        "performer": [
          {
            "type": "Practitioner",
            "reference": "Practitioner/43a9517c-d757-11ec-9d64-0242ac120002"
          }
        ],
        "specimen": [
          {
            "type": "Specimen",
            "reference": "Specimen/43a96978-d757-11ec-9d64-0242ac120002"
          }
        ],
        "conclusion": "Confirms the diagnosis of Childhood-nset epileptic encephalopathy (EEOC)."
      },
      "request": {
        "method": "POST",
        "url": "DiagnosticReport"
      }
    },
    {
      "fullUrl": "Observation/43a9579e-d757-11ec-9d64-0242ac120002",
      "resource": {
        "resourceType": "Observation",
        "id": "43a9579e-d757-11ec-9d64-0242ac120002",
        "status": "final",
        "code": {
          "coding": [
            {
              "system": "http://loinc.org",
              "code": "69548-6",
              "display": "Genetic variant accesment"
            }
          ]
        },
        "meta": {
          "profile": [
            "http://hl7.org/fhir/uv/genomic-reporting/gene-panel"
          ]
        },
        "subject": {
          "type": "Patient",
          "reference": "Patient/43a92b3e-d757-11ec-9d64-0242ac120002"
        },
        "specimen": {
          "type": "Specimen",
          "reference": "Specimen/43a96978-d757-11ec-9d64-0242ac120002"
        },
        "performer": [
          {
            "type": "Practitioner",
            "reference": "Practitioner/43a9517c-d757-11ec-9d64-0242ac120002"
          }
        ],
        "component": [
          {
            "code": {
              "coding": [
                {
                  "system": "http://loinc.org",
                  "code": "48013-7",
                  "display": "HGVS Description"
                }
              ]
            },
            "valueCodeableConcept": {
              "coding": [
                {
                  "system": "http://www.ncbi.nlm.nih",
                  "code": "gene_panel",
                  "display": "NM_001271.3: c.3917del p.(Gln1306Argfs*13)"
                }
              ]
            }
          },
          {
            "code": {
              "coding": [
                {
                  "system": "http://loinc.org",
                  "code": "53034-5",
                  "display": "zygosity"
                }
              ]
            },
            "valueCodeableConcept": {
              "coding": [
                {
                  "system": "http://loinc.org",
                  "code": "LA6706-1",
                  "display": "Heterozygote"
                }
              ]
            }
          },
          {
            "code": {
              "coding": [
                {
                  "system": "http://loinc.org",
                  "code": "LL4034-6",
                  "display": "Clinical significance"
                }
              ]
            },
            "valueCodeableConcept": {
              "coding": [
                {
                  "system": "http://loinc.org",
                  "code": "LA26332-9",
                  "display": "Pathogenic"
                }
              ]
            }
          },
          {
            "code": {
              "coding": [
                {
                  "system": "http://loinc.org",
                  "code": "53034-0",
                  "display": "inheritance"
                }
              ]
            },
            "valueCodeableConcept": {
              "coding": [
                {
                  "system": "http://loinc.org",
                  "code": "LA6705-0",
                  "display": "AD"
                }
              ]
            }
          },
          {
            "code": {
              "coding": [
                {
                  "system": "http://hl7.org/geneNames",
                  "code": "gene-names",
                  "display": "Gene Name"
                }
              ]
            },
            "valueString": "CHD2"
          },
          {
            "code": {
              "coding": [
                {
                  "system": "http://hl7.org/evidence",
                  "code": "evidence",
                  "display": "Evidence for classification of variant"
                }
              ]
            },
            "valueString": "absent from the gnomAD population database (PM2_Moderate). predicted null variant where loss of function is known disease mechanism (PVS1_very strong)."
          },
          {
            "code": {
              "coding": [
                {
                  "system": "http://hl7.org/mutation",
                  "code": "confirmed-mutation",
                  "display": "confirmed-mutation"
                }
              ]
            },
            "valueBoolean": true
          }
        ],
        "note": [
          {
            "authorString": "comments",
            "text": "This variant occurs in a recessive gene that has been 100% sequenced and no second variant identified."
          }
        ]
      },
      "request": {
        "method": "POST",
        "url": "Observation"
      }
    },
    {
      "fullUrl": "Observation/6936572e-dc2e-11ec-9d64-0242ac120002",
      "resource": {
        "resourceType": "Observation",
        "id": "6936572e-dc2e-11ec-9d64-0242ac120002",
        "status": "final",
        "code": {
          "coding": [
            {
              "system": "http://loinc.org",
              "code": "69548-6",
              "display": "Genetic variant accesment"
            }
          ]
        },
        "meta": {
          "profile": [
            "http://hl7.org/fhir/uv/genomic-reporting/gene-panel2"
          ]
        },
        "subject": {
          "type": "Patient",
          "reference": "Patient/43a92b3e-d757-11ec-9d64-0242ac120002"
        },
        "specimen": {
          "type": "Specimen",
          "reference": "Specimen/43a96978-d757-11ec-9d64-0242ac120002"
        },
        "performer": [
          {
            "type": "Practitioner",
            "reference": "Practitioner/43a9517c-d757-11ec-9d64-0242ac120002"
          }
        ],
        "component": [
          {
            "code": {
              "coding": [
                {
                  "system": "http://loinc.org",
                  "code": "48013-7",
                  "display": "HGVS Description"
                }
              ]
            },
            "valueCodeableConcept": {
              "coding": [
                {
                  "system": "http://www.ncbi.nlm.nih",
                  "code": "gene_panel",
                  "display": "NM_001350626.1: c.2269C>T p.(His757Tyr)"
                }
              ]
            }
          },
          {
            "code": {
              "coding": [
                {
                  "system": "http://loinc.org",
                  "code": "53034-5",
                  "display": "zygosity"
                }
              ]
            },
            "valueCodeableConcept": {
              "coding": [
                {
                  "system": "http://loinc.org",
                  "code": "LA6706-1",
                  "display": "Heterozygote"
                }
              ]
            }
          },
          {
            "code": {
              "coding": [
                {
                  "system": "http://loinc.org",
                  "code": "LL4034-6",
                  "display": "Clinical significance"
                }
              ]
            },
            "valueCodeableConcept": {
              "coding": [
                {
                  "system": "http://loinc.org",
                  "code": "LA26332-9",
                  "display": "Uncertain significance"
                }
              ]
            }
          },
          {
            "code": {
              "coding": [
                {
                  "system": "http://loinc.org",
                  "code": "53034-0",
                  "display": "inheritance"
                }
              ]
            },
            "valueCodeableConcept": {
              "coding": [
                {
                  "system": "http://loinc.org",
                  "code": "LA6705-0",
                  "display": "AR"
                }
              ]
            }
          },
          {
            "code": {
              "coding": [
                {
                  "system": "http://hl7.org/geneNames",
                  "code": "gene-names",
                  "display": "Gene Name"
                }
              ]
            },
            "valueString": " BRAT1"
          },
          {
            "code": {
              "coding": [
                {
                  "system": "http://hl7.org/evidence",
                  "code": "evidence",
                  "display": "Evidence for classification of variant"
                }
              ]
            },
            "valueString": "predicted null variant where loss of function is known disease mechanism (PVS1_very strong)."
          },
          {
            "code": {
              "coding": [
                {
                  "system": "http://hl7.org/mutation",
                  "code": "confirmed-mutation",
                  "display": "confirmed-mutation"
                }
              ]
            },
            "valueBoolean": false
          }
        ],
        "note": [
          {
            "authorString": "comments",
            "text": "This variant occurs in a recessive gene that has been 100% sequenced and no second variant identified."
          }
        ]
      },
      "request": {
        "method": "POST",
        "url": "Observation"
      }
    },
    {
      "fullUrl": "Patient/43a92b3e-d757-11ec-9d64-0242ac120002",
      "resource": {
        "id": "43a92b3e-d757-11ec-9d64-0242ac120002",
        "resourceType": "Patient",
        "active": true,
        "name": [
          {
            "family": "Island",
            "given": [
              "London"
            ]
          }
        ],
        "gender": "male",
        "birthDate": "2016-03-11",
        "identifier": [
          {
            "value": "1146253",
            "use": "official"
          }
        ]
      },
      "request": {
        "method": "POST",
        "url": "Patient"
      }
    },
    {
      "fullUrl": "Specimen/43a96978-d757-11ec-9d64-0242ac120002",
      "resource": {
        "resourceType": "Specimen",
        "id": "43a96978-d757-11ec-9d64-0242ac120002",
        "receivedTime": "2020-05-22T14:18:00",
        "collection": {
          "collectedDateTime": "2020-05-22T12:26:00",
          "collector": {
            "display": "Anita Sfagliato"
          }
        },
        "identifier": [
          {
            "value": "20RG-123G0002",
            "id": "specimen_id"
          }
        ],
        "type": {
          "coding": [
            {
              "system": "http://snomed.info/sct",
              "code": "122555007",
              "display": "Blood, Venous"
            }
          ]
        },
        "subject": {
          "type": "Patient",
          "reference": "Patient/43a92b3e-d757-11ec-9d64-0242ac120002"
        }
      },
      "request": {
        "method": "POST",
        "url": "Specimen"
      }
    },
    {
      "fullUrl": "Practitioner/43a9517c-d757-11ec-9d64-0242ac120002",
      "resource": {
        "resourceType": "Practitioner",
        "active": true,
        "id": "43a9517c-d757-11ec-9d64-0242ac120002",
        "name": [
          {
            "given": [
              "Anita Sfagliato"
            ],
            "prefix": [
              "Clinical Scientist"
            ],
            "text": "Reported By",
            "period": {
              "start": "2020-06-23",
              "id": "reportTime"
            }
          },
          {
            "given": [
              "Alistair Cricket"
            ],
            "prefix": [
              "Principal Clinical Scientist"
            ],
            "text": "Authorised By",
            "period": {
              "start": "2020-06-25",
              "id": "authorisedTime"
            }
          }
        ],
        "communication": [
          {
            "coding": [
              {
                "system": "http://terminology.hl7",
                "code": "en",
                "display": "English"
              }
            ]
          }
        ]
      },
      "request": {
        "method": "POST",
        "url": "Practitioner"
      }
    },
    {
      "fullUrl": "Task/43a948da-d757-11ec-9d64-0242ac120002",
      "resource": {
        "resourceType": "Task",
        "id": "43a948da-d757-11ec-9d64-0242ac120002",
        "status": "requested",
        "intent": "plan",
        "code": {
          "coding": [
            {
              "system": "http://loinc.org",
              "code": "LA14020-4",
              "display": "Genetic counceling recommended"
            }
          ]
        },
        "description": "Testing of London Island's parents is recommended to determine whether the CHD2 c.3917del p.(Gln1306Argfs*13) pathogenic variant has arisen de novo and to assess the recurrence risk. Please include clinical information for the parents. A referral to their local clinical genetics service may be appropriate for this family.",
        "for": {
          "type": "Patient",
          "reference": "Patient/43a92b3e-d757-11ec-9d64-0242ac120002"
        }
      },
      "request": {
        "method": "POST",
        "url": "Task"
      }
    },
    {
      "fullUrl": "Observation/43a9406a-d757-11ec-9d64-0242ac120002",
      "resource": {
        "resourceType": "Observation",
        "id": "43a9406a-d757-11ec-9d64-0242ac120002",
        "status": "final",
        "meta": {
          "profile": [
            "http://hl7.org/fhir/uv/genomic-reporting/overall-interpretation"
          ]
        },
        "code": {
          "coding": [
            {
              "system": "http://loinc.org",
              "code": "51968-6",
              "display": "Genetic disease analysis overall interpretation"
            }
          ]
        },
        "subject": {
          "type": "Patient",
          "reference": "Patient/43a92b3e-d757-11ec-9d64-0242ac120002"
        },
        "specimen": {
          "type": "Specimen",
          "reference": "Specimen/43a96978-d757-11ec-9d64-0242ac120002"
        },
        "performer": [
          {
            "type": "Practitioner",
            "reference": "Practitioner/43a9517c-d757-11ec-9d64-0242ac120002"
          }
        ],
        "category": [
          {
            "coding": [
              {
                "system": "http://terminology.hl7.org/obs-category",
                "code": "laboratory",
                "display": "Laboratory"
              }
            ]
          }
        ],
        "effectiveDateTime": "",
        "interpretation": [
          {
            "coding": [
              {
                "system": "http://loinc.org",
                "code": "LA6668-3",
                "display": "Pathogenic"
              }
            ]
          }
        ],
        "valueString": "Next generation sequence analysis indicates that London Islandis heterozygous for the CHD2 c.3917del p.(Gln1306Argfs*13) pathogenic variant that has been confirmed by Sanger sequence analysis (see technical information below). Variants of uncertain clinical significance that have been identified are detailed in the technical information below."
      },
      "request": {
        "method": "POST",
        "url": "Observation"
      }
    },
    {
      "fullUrl": "ServiceRequest/43a93b24-d757-11ec-9d64-0242ac120002",
      "resource": {
        "resourceType": "ServiceRequest",
        "id": "43a93b24-d757-11ec-9d64-0242ac120002",
        "status": "active",
        "intent": "order",
        "supportingInfo": [
          {
            "reference": "PlanDefinition/43a9605e-d757-11ec-9d64-0242ac120002"
          }
        ],
        "meta": {
          "profile": [
            "http://hl7.org/fhir/StructureDefinition/servicerequest"
          ]
        },
        "subject": {
          "type": "Patient",
          "reference": "Patient/43a92b3e-d757-11ec-9d64-0242ac120002"
        },
        "category": [
          {
            "coding": [
              {
                "system": "http://snomed.info/sct",
                "code": "108252007",
                "display": "Laboratory procedure"
              }
            ]
          }
        ],
        "reasonCode": [
          {
            "coding": [
              {
                "system": "http://snomed.info/sct",
                "code": "230387008",
                "display": "Reason for recommending early-onset benign childhood epilepsy"
              }
            ],
            "text": "Sequence variant screening in London ISLAND because of early onset obesity, epilepsy and delayed development."
          }
        ]
      },
      "request": {
        "method": "POST",
        "url": "ServiceRequest"
      }
    },
    {
      "fullUrl": "PlanDefinition/43a9605e-d757-11ec-9d64-0242ac120002",
      "resource": {
        "resourceType": "PlanDefinition",
        "id": "43a9605e-d757-11ec-9d64-0242ac120002",
        "status": "active",
        "description": "Screening of 82 genes associated with severe delay and seizures (ADSL, ALG13, ARHGEF9, ARX, ATP1A3, ATRX, BRAT1, CDKL5, CHD2, CHRNA2, CHRNA4, CHRNB2, CLN5, CLN6, CLN8, CNTNAP2, DNM1, DOCK7, DYRK1A, EHMT1, FOXG1, GABRA1, GABRB3, GATAD2B, GNAO1, GRIN1, GRIN2A, GRIN2B, HCN1, IQSEC2, KCNA2, KCNB1, KCNC1, KCNQ2, KCNT1, KIAA1279 (KIF1BP), KIAA2022, LGI1, MAGI2, MBD5, MECP2, MEF2C, MFSD8, NACC1, NRXN1, PCDH19, PIGA, PIGN, PLCB1, PNKP, POLG, PRRT2, PURA, QARS, SCN1A, SCN1B, SCN2A, SCN8A, SETD5, SIK1, SLC12A5, SLC13A5, SLC16A2, SLC25A22, SLC2A1, SLC35A2, SLC6A1, SLC9A6, SMC1A, SPTAN1, STX1B, STXBP1, SYNGAP1, TBC1D24, TCF4, TPP1, UBE2A, UBE3A, UNC80, WDR45, WWOX, ZEB2) was carried out using next generation sequencing (Agilent SureSelect + MiSeq/NextSeq). *Pseudogenes with significant sequence homology to DMN1 exons 18, 19, 20 and 22 may result in incorrect coverage data for this gene and variants in these exons may not be detected. 99.6% of the coding bases in the targeted genes were covered >30x. Sequencing includes the coding region of the genes targeted, including intron/exon splice regions (-14 splice acceptor and +6 splice donor, unless otherwise specified). Inhouse validation attributes a minimum sensitivity of 99.9% to detect single nucleotide substitutions (with 95% confidence) and 77% for insertion/deletion variants (with 95% confidence) for regions covered by 30 or more reads. Variants are classified using the ACMG/AMP guidelines (Richards et al 2015 Genet Med) /ACGS Best Practice guidelines (2019).",
        "relatedArtifact": [
          {
            "type": "citation",
            "citation": "BRAT1: Biallelic pathogenic variants cause lethal neonatal rigidity and multifocal seizures syndrome (RMFSL) (MIM 614498) which is a severe autosomal recessive epileptic encephalopathy; affected infants achieve no developmental milestones and die within the first months or years of life.",
            "display": "Gene reference"
          }
        ],
        "action": [
          {
            "prefix": "2",
            "title": " BRAT1 Gene Information",
            "description": "BRAT1: Biallelic pathogenic variants cause lethal neonatal rigidity and multifocal seizures syndrome (RMFSL) (MIM 614498) which is a severe autosomal recessive epileptic encephalopathy; affected infants achieve no developmental milestones and die within the first months or years of life."
          }
        ]
      },
      "request": {
        "method": "POST",
        "url": "PlanDefinition"
      }
    }
  ]
}
