{
  "resourceType": "Bundle",
  "type": "transaction",
  "entry": [
    {
      "fullUrl": "DiagnosticReport/a425799a-a905-d750-7e1e-a9c573581a81",
      "resource": {
        "resourceType": "DiagnosticReport",
        "id": "a425799a-a905-d750-7e1e-a9c573581a81",
        "meta": {
          "profile": [
            "http://hl7.org/fhir/StructureDefinition/genomicreport"
          ]
        },
        "status": "final",
        "code": {
          "coding": [
            {
              "system": "http://snomed.info/sct",
              "code": "230387008",
              "display": "Benign occipital epilepsy of childhood - early onset variant"
            }
          ]
        },
        "subject": {
          "type": "Patient",
          "reference": "Patient/37176e84-d977-e993-3c49-d76fcfc6e625"
        },
        "effectiveDateTime": "2020-04-06",
        "resultsInterpreter": [
          {
            "type": "Practitioner",
            "reference": "Practitioner/d3447490-96fd-35d0-adf2-0806e5214606"
          },
          {
            "type": "Practitioner",
            "reference": "Practitioner/46743741-9466-e472-6b5f-5241f323ca74"
          }
        ],
        "specimen": [
          {
            "type": "Specimen",
            "reference": "Specimen/fb82860d-eabc-a8d0-b341-facdff0ac0f1"
          }
        ],
        "result": [
          {
            "type": "Observation",
            "reference": "Observation/5306f3f5-1516-6570-5b7c-709acb175a5a"
          },
          {
            "type": "Observation",
            "reference": "Observation/964a870c-7c87-9b74-1d87-8f9f9cdf5a86"
          },
          {
            "type": "Observation",
            "reference": "Observation/30bcab0e-d857-0102-55d4-4936a1515607"
          },
          {
            "type": "Observation",
            "reference": "Observation/4562be7f-bb42-e0b2-0426-465e3e37952d"
          }
        ],
        "conclusion": "Consistent with a diagnosis of Rett syndrome."
      },
      "request": {
        "method": "POST",
        "url": "DiagnosticReport"
      }
    },
    {
      "fullUrl": "Organization/85940927-468f-f53d-864a-7a50b48d73f1",
      "resource": {
        "id": "85940927-468f-f53d-864a-7a50b48d73f1",
        "resourceType": "Organization",
        "active": true,
        "type": [
          {
            "coding": [
              {
                "system": "http://term.hl7.org/CodeSystem/org-id-types",
                "code": "gosh-org",
                "display": "NHS UK Healthcare Provider"
              }
            ],
            "text": "NHS UK Healthcare Provider"
          }
        ],
        "name": "Great Ormond Street Hospital for Children NHS Foundation Trust",
        "address": [
          {
            "line": [
              "Level 4 Barclays House",
              "37 Queens Square"
            ],
            "city": "London",
            "postalCode": "WC1N 3BH",
            "country": "United Kingdom"
          }
        ]
      },
      "request": {
        "method": "POST",
        "url": "Organization"
      }
    },
    {
      "fullUrl": "Patient/37176e84-d977-e993-3c49-d76fcfc6e625",
      "resource": {
        "resourceType": "Patient",
        "id": "37176e84-d977-e993-3c49-d76fcfc6e625",
        "active": true,
        "name": [
          {
            "family": "Manager",
            "given": [
              "General"
            ]
          }
        ],
        "gender": "female",
        "birthDate": "2016-06-01",
        "managingOrganization": {
          "reference": "Organization/85940927-468f-f53d-864a-7a50b48d73f1"
        },
        "identifier": [
          {
            "value": "40057119",
            "system": "https://www.gosh.nhs.uk"
          },
          {
            "extension": [
              {
                "url": "https://fhir.nhs.uk/R4/StructureDefinition/Extension-UKCore-NHSNumberVerificationStatus",
                "valueCodeableConcept": {
                  "coding": [
                    {
                      "system": "https://fhir.nhs.uk/R4/CodeSystem/UKCore-NHSNumberVerificationStatus",
                      "code": "Z60791509",
                      "display": "Family Number"
                    }
                  ]
                }
              }
            ]
          }
        ],
        "generalPractitioner": {
          "type": "Practitioner",
          "reference": "Practitioner/d3447490-96fd-35d0-adf2-0806e5214606"
        }
      },
      "request": {
        "method": "POST",
        "url": "Patient"
      }
    },
    {
      "fullUrl": "Specimen/fb82860d-eabc-a8d0-b341-facdff0ac0f1",
      "resource": {
        "resourceType": "Specimen",
        "id": "fb82860d-eabc-a8d0-b341-facdff0ac0f1",
        "receivedTime": "2020-03-12T14:15:00",
        "collection": {
          "collectedDateTime": "2020-06-12T14:15:00"
        },
        "identifier": [
          {
            "value": "20RG-114G00099",
            "system": "https://www.gosh.nhs.uk",
            "id": "specimen id"
          }
        ],
        "type": {
          "coding": [
            {
              "system": "http://snomed.info/sct",
              "code": "122555007",
              "display": "Venus blood specimen"
            }
          ]
        },
        "subject": {
          "type": "Patient",
          "reference": "Patient/37176e84-d977-e993-3c49-d76fcfc6e625"
        }
      },
      "request": {
        "method": "POST",
        "url": "Specimen"
      }
    },
    {
      "fullUrl": "Practitioner/d3447490-96fd-35d0-adf2-0806e5214606",
      "resource": {
        "resourceType": "Practitioner",
        "id": "d3447490-96fd-35d0-adf2-0806e5214606",
        "active": true,
        "name": [
          {
            "use": "official",
            "family": "Nephrology",
            "given": [
              "Clinics"
            ],
            "text": "Authorized By"
          }
        ],
        "qualification": [
          {
            "code": {
              "text": "Principal Clinical Scientist"
            }
          },
          {
            "issuer": {
              "reference": "Organization/85940927-468f-f53d-864a-7a50b48d73f1"
            }
          }
        ]
      },
      "request": {
        "method": "POST",
        "url": "Practitioner"
      }
    },
    {
      "fullUrl": "Practitioner/46743741-9466-e472-6b5f-5241f323ca74",
      "resource": {
        "resourceType": "Practitioner",
        "id": "46743741-9466-e472-6b5f-5241f323ca74",
        "active": true,
        "name": [
          {
            "use": "official",
            "family": "Quality",
            "given": [
              "Activity"
            ],
            "text": "Reported By"
          }
        ],
        "qualification": [
          {
            "code": {
              "text": "Clinical Scientist"
            }
          },
          {
            "issuer": {
              "reference": "Organization/85940927-468f-f53d-864a-7a50b48d73f1"
            }
          }
        ]
      },
      "request": {
        "method": "POST",
        "url": "Practitioner"
      }
    },
    {
      "fullUrl": "Observation/5306f3f5-1516-6570-5b7c-709acb175a5a",
      "resource": {
        "resourceType": "Observation",
        "id": "5306f3f5-1516-6570-5b7c-709acb175a5a",
        "status": "final",
        "code": {
          "coding": [
            {
              "system": "http://loinc.org",
              "code": "69548-6",
              "display": "Genetic variant assessment"
            }
          ]
        },
        "meta": {
          "profile": [
            "http://hl7.org/fhir/uv/genomics-reporting/StructureDefinition/variant"
          ]
        },
        "subject": {
          "type": "Patient",
          "reference": "Patient/37176e84-d977-e993-3c49-d76fcfc6e625"
        },
        "specimen": {
          "type": "Specimen",
          "reference": "Specimen/fb82860d-eabc-a8d0-b341-facdff0ac0f1"
        },
        "performer": [
          {
            "type": "Practitioner",
            "reference": "Practitioner/d3447490-96fd-35d0-adf2-0806e5214606"
          },
          {
            "type": "Practitioner",
            "reference": "Practitioner/46743741-9466-e472-6b5f-5241f323ca74"
          }
        ],
        "note": [
          {
            "authorString": "gene information",
            "text": "MECP2: Pathogenic variants in MECP2 can cause a variety of X-linked conditions: Rett syndrome (OMIM, 312750), neonatal severe encephalopathy (OMIM,300673), and X-linked syndromic mental retardation (OMIM 300260 and 300055)."
          }
        ],
        "component": [
          {
            "code": {
              "coding": [
                {
                  "system": "http://loinc.org",
                  "code": "51958-7",
                  "display": "Transcript reference sequence [ID]"
                }
              ]
            },
            "valueCodeableConcept": {
              "coding": [
                {
                  "system": "http://www.ncbi.nlm.nih.gov/refseq",
                  "code": "NM_001350626.1"
                }
              ]
            }
          },
          {
            "code": {
              "coding": [
                {
                  "system": "http://loinc.org",
                  "code": "48004-6",
                  "display": "DNA change (c.HGVS)"
                }
              ]
            },
            "valueCodeableConcept": {
              "coding": [
                {
                  "system": "http://varnomen.hgvs.org",
                  "code": "NM_001350626.1:c.1550G>T"
                }
              ]
            }
          },
          {
            "code": {
              "coding": [
                {
                  "system": "http://loinc.org",
                  "code": "48005-3",
                  "display": "Amino acid change (pHGVS)"
                }
              ]
            },
            "valueCodeableConcept": {
              "coding": [
                {
                  "system": "http://varnomen.hgvs.org/",
                  "code": "p.(Arg701*)"
                }
              ]
            }
          },
          {
            "code": {
              "coding": [
                {
                  "system": "http://loinc.org",
                  "code": "53034-5",
                  "display": "zygosity"
                }
              ]
            },
            "valueCodeableConcept": {
              "coding": [
                {
                  "system": "http://loinc.org",
                  "code": " LA6706-1",
                  "display": "Heterozygous"
                }
              ]
            }
          },
          {
            "code": {
              "coding": [
                {
                  "system": "http://loinc.org",
                  "code": "53037-8",
                  "display": "Clinical significance"
                }
              ]
            },
            "valueCodeableConcept": {
              "coding": [
                {
                  "system": "http://loinc.org",
                  "code": "LA6668-3",
                  "display": "Pathogenic"
                }
              ]
            }
          },
          {
            "code": {
              "coding": [
                {
                  "system": "http://loinc.org",
                  "code": "79742-3",
                  "display": "Inheritance pattern based on family history"
                }
              ]
            },
            "valueCodeableConcept": {
              "coding": [
                {
                  "system": "http://loinc.org",
                  "code": "LA24640-7",
                  "display": "Autosomal dominant"
                }
              ]
            }
          },
          {
            "code": {
              "coding": [
                {
                  "system": "http://www.genenames.org/geneId",
                  "code": "HGNC:6990"
                }
              ]
            },
            "valueString": "MECP2"
          },
          {
            "code": {
              "coding": [
                {
                  "system": "http://hl7.org/evidence",
                  "code": "evidence",
                  "display": "Evidence for classification of variant"
                }
              ]
            },
            "valueString": "absent from the gnomAD population database (PM2_Moderate)."
          },
          {
            "code": {
              "coding": [
                {
                  "system": "http://hl7.org/variant",
                  "code": "confirmed-variant"
                }
              ]
            },
            "valueBoolean": false
          }
        ]
      },
      "request": {
        "method": "POST",
        "url": "Observation"
      }
    },
    {
      "fullUrl": "Observation/964a870c-7c87-9b74-1d87-8f9f9cdf5a86",
      "resource": {
        "resourceType": "Observation",
        "id": "964a870c-7c87-9b74-1d87-8f9f9cdf5a86",
        "status": "final",
        "code": {
          "coding": [
            {
              "system": "http://loinc.org",
              "code": "69548-6",
              "display": "Genetic variant assesment"
            }
          ]
        },
        "meta": {
          "profile": [
            "http://hl7.org/fhir/uv/genomics-reporting/StructureDefinition/variant"
          ]
        },
        "subject": {
          "type": "Patient",
          "reference": "Patient/37176e84-d977-e993-3c49-d76fcfc6e625"
        },
        "specimen": {
          "type": "Specimen",
          "reference": "Specimen/fb82860d-eabc-a8d0-b341-facdff0ac0f1"
        },
        "performer": [
          {
            "type": "Practitioner",
            "reference": "Practitioner/d3447490-96fd-35d0-adf2-0806e5214606"
          },
          {
            "type": "Practitioner",
            "reference": "Practitioner/46743741-9466-e472-6b5f-5241f323ca74"
          }
        ],
        "note": [
          {
            "authorString": "gene information",
            "text": "BRAT1: Biallelic pathogenic variants cause lethal neonatal rigidity and multifocal seizures syndrome (RMFSL) (MIM 614498) which is a severe autosomal recessive epileptic encephalopathy; affected infants achieve no developmental milestones and die within the first months or years of life."
          }
        ],
        "component": [
          {
            "code": {
              "coding": [
                {
                  "system": "http://loinc.org",
                  "code": "51958-7",
                  "display": "Transcript reference sequence [ID]"
                }
              ]
            },
            "valueCodeableConcept": {
              "coding": [
                {
                  "system": "http://www.ncbi.nlm.nih.gov/refseq",
                  "code": "NM_032504.1"
                }
              ]
            }
          },
          {
            "code": {
              "coding": [
                {
                  "system": "http://loinc.org",
                  "code": "48004-6",
                  "display": "DNA change (c.HGVS)"
                }
              ]
            },
            "valueCodeableConcept": {
              "coding": [
                {
                  "system": "http://varnomen.hgvs.org",
                  "code": "NM_032504.1:c.923G>C"
                }
              ]
            }
          },
          {
            "code": {
              "coding": [
                {
                  "system": "http://loinc.org",
                  "code": "48005-3",
                  "display": "Amino acid change (pHGVS)"
                }
              ]
            },
            "valueCodeableConcept": {
              "coding": [
                {
                  "system": "http://varnomen.hgvs.org/",
                  "code": "p.(Arg701*)"
                }
              ]
            }
          },
          {
            "code": {
              "coding": [
                {
                  "system": "http://loinc.org",
                  "code": "53034-5",
                  "display": "zygosity"
                }
              ]
            },
            "valueCodeableConcept": {
              "coding": [
                {
                  "system": "http://loinc.org",
                  "code": "LA6706-1",
                  "display": "Heterozygous"
                }
              ]
            }
          },
          {
            "code": {
              "coding": [
                {
                  "system": "http://loinc.org",
                  "code": "53037-8",
                  "display": "Clinical significance"
                }
              ]
            },
            "valueCodeableConcept": {
              "coding": [
                {
                  "system": "http://loinc.org",
                  "code": " LA26333-7",
                  "display": "Uncertain significance"
                }
              ]
            }
          },
          {
            "code": {
              "coding": [
                {
                  "system": "http://loinc.org",
                  "code": "79742-3",
                  "display": "Inheritance pattern based on family history"
                }
              ]
            },
            "valueCodeableConcept": {
              "coding": [
                {
                  "system": "http://loinc.org",
                  "code": " LA24722-3",
                  "display": "Family history is unknown or not recorded"
                }
              ]
            }
          },
          {
            "code": {
              "coding": [
                {
                  "system": "http://www.genenames.org/geneId",
                  "code": "HGNC:21701"
                }
              ]
            },
            "valueString": "BRAT1"
          },
          {
            "code": {
              "coding": [
                {
                  "system": "http://hl7.org/evidence",
                  "code": "evidence",
                  "display": "Evidence for classification of variant"
                }
              ]
            },
            "valueString": "Predicted null variant where loss of function is known disease mechanism (PVS1_very strong). Absent from the gnomAD population database (PM2_Moderate)."
          },
          {
            "code": {
              "coding": [
                {
                  "system": "http://hl7.org/variant",
                  "code": "confirmed-variant"
                }
              ]
            },
            "valueBoolean": false
          }
        ]
      },
      "request": {
        "method": "POST",
        "url": "Observation"
      }
    },
    {
      "fullUrl": "Observation/30bcab0e-d857-0102-55d4-4936a1515607",
      "resource": {
        "resourceType": "Observation",
        "id": "30bcab0e-d857-0102-55d4-4936a1515607",
        "status": "final",
        "code": {
          "coding": [
            {
              "system": "http://loinc.org",
              "code": "69548-6",
              "display": "Genetic variant assesment"
            }
          ]
        },
        "meta": {
          "profile": [
            "http://hl7.org/fhir/uv/genomics-reporting/StructureDefinition/variant"
          ]
        },
        "subject": {
          "type": "Patient",
          "reference": "Patient/37176e84-d977-e993-3c49-d76fcfc6e625"
        },
        "specimen": {
          "type": "Specimen",
          "reference": "Specimen/fb82860d-eabc-a8d0-b341-facdff0ac0f1"
        },
        "performer": [
          {
            "type": "Practitioner",
            "reference": "Practitioner/d3447490-96fd-35d0-adf2-0806e5214606"
          },
          {
            "type": "Practitioner",
            "reference": "Practitioner/46743741-9466-e472-6b5f-5241f323ca74"
          }
        ],
        "note": [
          {
            "authorString": "gene information",
            "text": "UNC80: Biallelic pathogenic variants cause infantile hypotonia with psychomotor retardation and characteristic facies-2 (IHPRF2) (MIM 616801) which is a severe neurodevelopmental disorder with onset at birth or in early infancy. Affected individuals show severe global developmental delay with poor or absent speech and absent or limited ability to walk."
          }
        ],
        "component": [
          {
            "code": {
              "coding": [
                {
                  "system": "http://loinc.org",
                  "code": "51958-7",
                  "display": "Transcript reference sequence [ID]"
                }
              ]
            },
            "valueCodeableConcept": {
              "coding": [
                {
                  "system": "http://www.ncbi.nlm.nih.gov/refseq",
                  "code": "NM_001110792.1"
                }
              ]
            }
          },
          {
            "code": {
              "coding": [
                {
                  "system": "http://loinc.org",
                  "code": "48004-6",
                  "display": "DNA change (c.HGVS)"
                }
              ]
            },
            "valueCodeableConcept": {
              "coding": [
                {
                  "system": "http://varnomen.hgvs.org",
                  "code": "NM_001110792.1:c.606G>A"
                }
              ]
            }
          },
          {
            "code": {
              "coding": [
                {
                  "system": "http://loinc.org",
                  "code": "48005-3",
                  "display": "Amino acid change (pHGVS)"
                }
              ]
            },
            "valueCodeableConcept": {
              "coding": [
                {
                  "system": "http://varnomen.hgvs.org/",
                  "code": "p.(Lys422Serfs*28)"
                }
              ]
            }
          },
          {
            "code": {
              "coding": [
                {
                  "system": "http://loinc.org",
                  "code": "53034-5",
                  "display": "zygosity"
                }
              ]
            },
            "valueCodeableConcept": {
              "coding": [
                {
                  "system": "http://loinc.org",
                  "code": "LA6705-3",
                  "display": "Homozygous"
                }
              ]
            }
          },
          {
            "code": {
              "coding": [
                {
                  "system": "http://loinc.org",
                  "code": "53037-8",
                  "display": "Clinical significance"
                }
              ]
            },
            "valueCodeableConcept": {
              "coding": [
                {
                  "system": "http://loinc.org",
                  "code": " LA6668-3",
                  "display": "Pathogenic"
                }
              ]
            }
          },
          {
            "code": {
              "coding": [
                {
                  "system": "http://loinc.org",
                  "code": "79742-3",
                  "display": "Inheritance pattern based on family history"
                }
              ]
            },
            "valueCodeableConcept": {
              "coding": [
                {
                  "system": "http://loinc.org",
                  "code": " LA24640-7",
                  "display": "Autosomal dominant"
                }
              ]
            }
          },
          {
            "code": {
              "coding": [
                {
                  "system": "http://www.genenames.org/geneId",
                  "code": " HGNC:26582"
                }
              ]
            },
            "valueString": "UNC80"
          },
          {
            "code": {
              "coding": [
                {
                  "system": "http://hl7.org/evidence",
                  "code": "evidence",
                  "display": "Evidence for classification of variant"
                }
              ]
            },
            "valueString": "Absent from the gnomAD population database (PM2_Moderate). Predicted null variant where loss of function is known disease mechanism (PVS1_very strong)."
          },
          {
            "code": {
              "coding": [
                {
                  "system": "http://hl7.org/variant",
                  "code": "confirmed-variant"
                }
              ]
            },
            "valueBoolean": true
          }
        ]
      },
      "request": {
        "method": "POST",
        "url": "Observation"
      }
    },
    {
      "fullUrl": "Observation/4562be7f-bb42-e0b2-0426-465e3e37952d",
      "resource": {
        "resourceType": "Observation",
        "id": "4562be7f-bb42-e0b2-0426-465e3e37952d",
        "status": "final",
        "code": {
          "coding": [
            {
              "system": "http://loinc.org",
              "code": "69548-6",
              "display": "Genetic variant assesment"
            }
          ]
        },
        "meta": {
          "profile": [
            "http://hl7.org/fhir/uv/genomics-reporting/StructureDefinition/variant"
          ]
        },
        "subject": {
          "type": "Patient",
          "reference": "Patient/37176e84-d977-e993-3c49-d76fcfc6e625"
        },
        "specimen": {
          "type": "Specimen",
          "reference": "Specimen/fb82860d-eabc-a8d0-b341-facdff0ac0f1"
        },
        "performer": [
          {
            "type": "Practitioner",
            "reference": "Practitioner/d3447490-96fd-35d0-adf2-0806e5214606"
          },
          {
            "type": "Practitioner",
            "reference": "Practitioner/46743741-9466-e472-6b5f-5241f323ca74"
          }
        ],
        "note": [
          {
            "authorString": "gene information",
            "text": "MECP3: Pathogenic variants in MECP3 can cause a variety of X-linked conditions: Rett syndrome (OMIM, 312750), neonatal severe encephalopathy (OMIM,300673), and X-linked syndromic mental retardation (OMIM 300260 and 300055)."
          }
        ],
        "component": [
          {
            "code": {
              "coding": [
                {
                  "system": "http://loinc.org",
                  "code": "51958-7",
                  "display": "Transcript reference sequence [ID]"
                }
              ]
            },
            "valueCodeableConcept": {
              "coding": [
                {
                  "system": "http://www.ncbi.nlm.nih.gov/refseq",
                  "code": "NM_002693.2"
                }
              ]
            }
          },
          {
            "code": {
              "coding": [
                {
                  "system": "http://loinc.org",
                  "code": "48004-6",
                  "display": "DNA change (c.HGVS)"
                }
              ]
            },
            "valueCodeableConcept": {
              "coding": [
                {
                  "system": "http://varnomen.hgvs.org",
                  "code": "NM_002693.2:c.849-5A>G"
                }
              ]
            }
          },
          {
            "code": {
              "coding": [
                {
                  "system": "http://loinc.org",
                  "code": "48005-3",
                  "display": "Amino acid change (pHGVS)"
                }
              ]
            },
            "valueCodeableConcept": {
              "coding": [
                {
                  "system": "http://varnomen.hgvs.org/",
                  "code": "p.(Lys422Serfs*28)"
                }
              ]
            }
          },
          {
            "code": {
              "coding": [
                {
                  "system": "http://loinc.org",
                  "code": "53034-5",
                  "display": "zygosity"
                }
              ]
            },
            "valueCodeableConcept": {
              "coding": [
                {
                  "system": "http://loinc.org",
                  "code": " LA6707-9",
                  "display": "Hemizygous"
                }
              ]
            }
          },
          {
            "code": {
              "coding": [
                {
                  "system": "http://loinc.org",
                  "code": "53037-8",
                  "display": "Clinical significance"
                }
              ]
            },
            "valueCodeableConcept": {
              "coding": [
                {
                  "system": "http://loinc.org",
                  "code": " LA6668-3",
                  "display": "Pathogenic"
                }
              ]
            }
          },
          {
            "code": {
              "coding": [
                {
                  "system": "http://loinc.org",
                  "code": "79742-3",
                  "display": "Inheritance pattern based on family history"
                }
              ]
            },
            "valueCodeableConcept": {
              "coding": [
                {
                  "system": "http://loinc.org",
                  "code": "LA24947-6",
                  "display": "X-linked"
                }
              ]
            }
          },
          {
            "code": {
              "coding": [
                {
                  "system": "http://www.genenames.org/geneId",
                  "code": "HGNC:6990"
                }
              ]
            },
            "valueString": "MECP2"
          },
          {
            "code": {
              "coding": [
                {
                  "system": "http://hl7.org/evidence",
                  "code": "evidence",
                  "display": "Evidence for classification of variant"
                }
              ]
            },
            "valueString": "Absent from the gnomAD population database (PM2_Moderate). Predicted null variant where loss of function is known disease mechanism (PVS1_very strong)."
          },
          {
            "code": {
              "coding": [
                {
                  "system": "http://hl7.org/variant",
                  "code": "confirmed-variant"
                }
              ]
            },
            "valueBoolean": true
          }
        ]
      },
      "request": {
        "method": "POST",
        "url": "Observation"
      }
    },
    {
      "fullUrl": "Task/5f3f5638-3870-1a14-b490-b6081dfc8352",
      "resource": {
        "resourceType": "Task",
        "id": "5f3f5638-3870-1a14-b490-b6081dfc8352",
        "meta": {
          "profile": [
            "http://hl7.org/fhir/StructureDefinition/task-rec-followup"
          ]
        },
        "status": "requested",
        "intent": "plan",
        "code": {
          "coding": [
            {
              "system": "http://loinc.org",
              "code": "LA14020-4",
              "display": "Genetic counseling recommended"
            }
          ]
        },
        "description": "Testing of General Manager's parents is recommended to determine whether the SCN1A c.2101C>T pathogenic variant has arisen de novo and",
        "for": {
          "type": "Patient",
          "reference": "Patient/37176e84-d977-e993-3c49-d76fcfc6e625"
        }
      },
      "request": {
        "method": "POST",
        "url": "Task"
      }
    },
    {
      "fullUrl": "Observation/6d16ee18-5521-16dd-2ba4-b180cb69ca38",
      "resource": {
        "resourceType": "Observation",
        "id": "6d16ee18-5521-16dd-2ba4-b180cb69ca38",
        "status": "final",
        "meta": {
          "profile": [
            "http://hl7.org/fhir/uv/genomics-reporting/StructureDefinition/overall-interpretation"
          ]
        },
        "code": {
          "coding": [
            {
              "system": "http://loinc.org",
              "code": "51968-6",
              "display": "Genetic disease analysis overall interpretation"
            }
          ]
        },
        "subject": {
          "type": "Patient",
          "reference": "Patient/37176e84-d977-e993-3c49-d76fcfc6e625"
        },
        "specimen": {
          "type": "Specimen",
          "reference": "Specimen/fb82860d-eabc-a8d0-b341-facdff0ac0f1"
        },
        "performer": [
          {
            "type": "Practitioner",
            "reference": "Practitioner/d3447490-96fd-35d0-adf2-0806e5214606"
          }
        ],
        "category": [
          {
            "coding": [
              {
                "system": "http://terminology.hl7.org/obs-category",
                "code": "laboratory",
                "display": "Laboratory"
              }
            ]
          }
        ],
        "valueString": "Next generation sequence analysis indicates that General Manager is heterozygous for the MECP2 c.953G>C p.(Arg318Pro) likely pathogenic variant that has been confirmed by Sanger sequence analysis"
      },
      "request": {
        "method": "POST",
        "url": "Observation"
      }
    },
    {
      "fullUrl": "ServiceRequest/c87a7463-19c1-6a0d-0feb-d845d0dfae43",
      "resource": {
        "resourceType": "ServiceRequest",
        "id": "c87a7463-19c1-6a0d-0feb-d845d0dfae43",
        "meta": {
          "profile": [
            "http://hl7.org/fhir/StructureDefinition/servicerequest"
          ]
        },
        "status": "active",
        "intent": "order",
        "supportingInfo": [
          {
            "reference": "PlanDefinition/38018b47-b29a-8b06-daf6-6c5f2577bffa"
          }
        ],
        "subject": {
          "type": "Patient",
          "reference": "Patient/37176e84-d977-e993-3c49-d76fcfc6e625"
        },
        "category": [
          {
            "coding": [
              {
                "system": "http://snomed.info/sct",
                "code": "108252007",
                "display": "Laboratory procedure"
              }
            ]
          }
        ],
        "reasonCode": [
          {
            "coding": [
              {
                "system": "http://snomed.info/sct",
                "code": "230387008",
                "display": "Benign occipital epilepsy of childhood - early onset variant"
              }
            ],
            "text": "Sequence variant screening in General Manager because of seizures and developmental delay. There is a clinical suspicion of Dravet Syndrome."
          }
        ]
      },
      "request": {
        "method": "POST",
        "url": "ServiceRequest"
      }
    },
    {
      "fullUrl": "PlanDefinition/38018b47-b29a-8b06-daf6-6c5f2577bffa",
      "resource": {
        "resourceType": "PlanDefinition",
        "id": "38018b47-b29a-8b06-daf6-6c5f2577bffa",
        "status": "active",
        "subjectReference": {
          "type": "Patient",
          "reference": "Patient/37176e84-d977-e993-3c49-d76fcfc6e625"
        },
        "description": "Screening of 82 genes associated with severe delay and seizures (ADSL, ALG13, ARHGEF9, ARX, ATP1A3, ATRX, BRAT1, CDKL5, CHD2, CHRNA2, CHRNA4, CHRNB2, CLN5, CLN6, CLN8, CNTNAP2, DNM1, DOCK7, DYRK1A, EHMT1, FOXG1, GABRA1, GABRB3, GATAD2B, GNAO1, GRIN1, GRIN2A, GRIN2B, HCN1, IQSEC2, KCNA2, KCNB1, KCNC1, KCNQ2, KCNT1, KIAA1279 (KIF1BP), KIAA2022, LGI1, MAGI2, MBD5, MECP2, MEF2C, MFSD8, NACC1, NRXN1, PCDH19, PIGA, PIGN, PLCB1, PNKP, POLG, PRRT2, PURA, QARS, SCN1A, SCN1B, SCN2A, SCN8A, SETD5, SIK1, SLC12A5, SLC13A5, SLC16A2, SLC25A22, SLC2A1, SLC35A2, SLC6A1, SLC9A6, SMC1A, SPTAN1, STX1B, STXBP1, SYNGAP1, TBC1D24, TCF4, TPP1, UBE2A, UBE3A, UNC80, WDR45, WWOX, ZEB2) was carried out using next generation sequencing (Agilent SureSelect + MiSeq/NextSeq). *Pseudogenes with significant sequence homology to DMN1 exons 18, 19, 20 and 22 may result in incorrect coverage data for this gene and variants in these exons may not be detected. 99.6% of the coding bases in the targeted genes were covered >30x. Sequencing includes the coding region of the genes targeted, including intron/exon splice regions (-14 splice acceptor and +6 splice donor, unless otherwise specified). Inhouse validation attributes a minimum sensitivity of 99.9% to detect single nucleotide substitutions (with 95% confidence) and 77% for insertion/deletion variants (with 95% confidence) for regions covered by 30 or more reads. Variants are classified using the ACMG/AMP guidelines (Richards et al 2015 Genet Med) /ACGS Best Practice guidelines (2019).",
        "relatedArtifact": [
          {
            "type": "citation",
            "citation": "(1) Shapiro et al Pediatr Res. 2010 Nov;68(5):446-51. (2) Neul et al Am J Med Genet B Neuropsychiatr Genet. 2019 Jan;180(1):55-67. (3) Cheadle et al, Hum Mol Genet. 2000, 9, 1119-1129.",
            "display": "Gene reference"
          }
        ]
      },
      "request": {
        "method": "POST",
        "url": "PlanDefinition"
      }
    }
  ]
}
